###############################################################################
# FILE: DM-CJ16050-R-map.TTL
# DESC: Stardog SMS Template for mapping DM to the graph.
# REQ : 
# SRC : 
# IN  : CSV generated from R
# OUT : 
# NOTE: 
#        stardog-admin virtual import DM-CJ16050-R-map.TTL DM-CJ16050-R.CSV
# TODO: 
###############################################################################
@prefix bibo:     <http://purl.org/ontology/bibo/> .
@prefix cj16050:  <https://example.org/cj16050#> .
@prefix cjprot:   <https://example.org/cjprot#> .
@prefix code:     <https://w3id.org/phuse/code#> .
@prefix custom:   <https://w3id.org/phuse/custom#> .
@prefix dcterms:  <http://purl.org/dc/terms/> .
@prefix owl:      <http://www.w3.org/2002/07/owl#> .
@prefix pav:      <http://purl.org/pav> .
@prefix rdfs:     <http://www.w3.org/2000/01/rdf-schema#> .
@prefix sdtmterm: <https://w3id.org/phuse/sdtmterm#> .
@prefix skos:     <http://www.w3.org/2004/02/skos/core#> .
@prefix study:    <https://w3id.org/phuse/study#> .
@prefix time:     <http://www.w3.org/2006/time#> .
@prefix xsd:      <http://www.w3.org/2001/XMLSchema#> .

# Animal Subject
cj16050:Animal_{DMROWSHORTHASH_IM} 
  rdf:type                    study:AnimalSubject ;
  skos:prefLabel              "Animal {subjid}"^^xsd:string ;
  study:hasReferenceInterval  cj16050:Interval_{DMROWSHORTHASH_IM} ;
  study:hasSubjectID          cj16050:SubjectIdentifier_{DMROWSHORTHASH_IM} ;
  study:hasUniqueSubjectID    cj16050:UniqueSubjectIdentifier_{DMROWSHORTHASH_IM} ;
  study:memberOf              cjprot:Set_{setcd} ;
  study:memberOf              code:Species_{SPECIESCD_IM} ;
  study:participatesIn        cj16050:AgeDataCollection_{DMROWSHORTHASH_IM} ;
  study:participatesIn        cj16050:SexDataCollection_{DMROWSHORTHASH_IM} ;
.

# Interval
cj16050:Interval_{DMROWSHORTHASH_IM}
  rdf:type          study:ReferenceInterval ;
  skos:prefLabel    "Interval {rfstdtc} {rfendtc}"^^xsd:string ;
  time:hasBeginning cj16050:Date_{rfstdtc} ;
  time:hasEnd       cj16050:Date_{rfendtc} ;
.

# Begin Date
cj16050:Date_{rfstdtc}
  rdf:type                   study:ReferenceBegin ;
  skos:prefLabel             "Date {rfstdtc}"^^xsd:string ;
  time:inXSDDate             "{rfstdtc}"^^xsd:date ;
  study:dateTimeInXSDString  "{rfstdtc}"^^xsd:string ;
.

## End Date
cj16050:Date_{rfendtc}
  rdf:type                   study:Ref<div></div>erenceEnd ;
  skos:prefLabel             "Date {rfendtc}"^^xsd:string ;
  time:inXSDDate             "{rfendtc}"^^xsd:date ;
  study:dateTimeInXSDString  "{rfendtc}"^^xsd:string ;
.

# Subject Identifier
cj16050:SubjectIdentifier_{DMROWSHORTHASH_IM}
  rdf:type       study:SubjectIdentifier; 
  skos:prefLabel "{subjid}"^^xsd:string ;
.

# Unique Subject Identifier
cj16050:UniqueSubjectIdentifier_{DMROWSHORTHASH_IM}}
  rdf:type       study:UniqueSubjectIdentifier ;
  skos:prefLabel "{usubjid}"^^xsd:string ;
.

# Age Data Collection
cj16050:AgeDataCollection_{DMROWSHORTHASH_IM}
  rdf:type       code:AgeDataCollection ;
  skos:prefLabel "Age data collection {subjid}"^^xsd:string ;
  code:outcome   cj16050:Age_{age}_{ageu} ; 
. 
# Age 
cj16050:Age_{age}_{ageu}
  rdf:type study:Age ;
  skos:prefLabel       "Age {age} {ageu}"^^xsd:string ;
  time:hasXSDDuration  "{DURATION_IM}"^^xsd:duration ;
  time:numericDuration "{age}"^^xsd:decimal ;
  time:unitType        time:unit{AGEUNIT_IM} ;
 . 
 
# Sex Data Collection
 cj16050:SexDataCollection_{DMROWSHORTHASH_IM}
   rdf:type       code:SexDataCollection ;
   skos:prefLabel "Sex data collection {subjid}"^^xsd:string ;
   code:outcome   code:Sex_{sex} ; 
 .
 
# Study Participants
cjprot:Study_{studyid}
  study:hasStudyParticipant cj16050:Animal_{subjid} ;
.
  