"age","ageu","AGEUNIT_IM","arm","armcd","domain","DURATION_IM","rfendtc","rfstdtc","ROWID_IM","setcd","sex","SPECIESCD_IM","studyid","subjid","usubjid"
"8","WEEKS","Week","Control","00","DM","P56D","2016-12-07","2016-12-07","1","00","M","Rat","CJ16050","00M01","CJ16050_00M01"
"8","WEEKS","Week","Control","00","DM","P56D","2016-12-07","2016-12-07","2","00","M","Rat","CJ16050","00M02","CJ16050_00M02"
"8","WEEKS","Week","Control","00","DM","P56D","2016-12-08","2016-12-08","3","00","M","Rat","CJ16050","00M03","CJ16050_00M03"
"8","WEEKS","Week","Control","00","DM","P56D","2016-12-08","2016-12-08","4","00","M","Rat","CJ16050","00M04","CJ16050_00M04"
"8","WEEKS","Week","Control","00","DM","P56D","2016-12-09","2016-12-09","5","00","M","Rat","CJ16050","00M05","CJ16050_00M05"
"8","WEEKS","Week","Control","00","DM","P56D","2016-12-06","2016-12-07","99-1","00","M","Rat","CJ16050","99M91","CJ16050_99M91"
"8","WEEKS","Week","Control","00","DM","P56D","2016-12-07","2016-12-07","99-2","00","M","Rat","CJ16050","99M92","CJ16050_99M92"
"8","WEEKS","Week","Control","00","DM","P56D","2016-12-08","2016-12-08","99-3","00","M","Rat","CJ16050","99M92","CJ16050_99M92"
"8","WEEKS","Week","Control","00","DM","P56D","7-DEC-16","2016-12-08","99-4","00","M","Rat","CJ16050","99M94","CJ16050_99M94"
"8","WEEKS","Week","Control","00","DM","P56D"," ","2016-12-09","99-5","00","M","Rat","CJ16050","99M95","CJ16050_99M95"
