"studyid","domain","usubjid","subjid","rfstdtc","rfendtc","rfxstdtc","rfxendtc","agetxt","ageu","sex","armcd","arm","setcd"
"CJUGSEND00","DM","CJUGSEND00_M001","M001","2014-09-03","2014-09-25","2014-09-03","2014-09-24","3-4","YEARS","M","1","Compound A, PO, 0-10-30-100 mg/kg","1"
"CJUGSEND00","DM","CJUGSEND00_M002","M002","2014-09-03","2014-09-25","2014-09-03","2014-09-24","3-4","YEARS","M","1","Compound A, PO, 0-10-30-100 mg/kg","1"
"CJUGSEND00","DM","CJUGSEND00_M003","M003","2014-09-03","2014-09-25","2014-09-03","2014-09-24","3-4","YEARS","M","1","Compound A, PO, 0-10-30-100 mg/kg","1"
"CJUGSEND00","DM","CJUGSEND00_M004","M004","2014-09-03","2014-09-25","2014-09-03","2014-09-24","3-4","YEARS","M","1","Compound A, PO, 0-10-30-100 mg/kg","1"
